Folder: prof.Vanessa/monitor_Icharger

Note: monitor_Icharger/readme
Codes and sample data related to Icharger battery cycles

File: 1charging_1_2.csv
date;time;battery_state;voltage[V];current[mA];capacity[mAh]
2025-09-23;09:01:20;charging;4.197;24;0
2025-09-23;09:02:48;charging;4.197;23;6
2025-09-23;09:04:16;charging;4.197;23;11
2025-09-23;09:05:44;charging;4.197;23;17
2025-09-23;09:07:12;charging;4.197;23;23
2025-09-23;09:08:40;charging;4.197;23;29
2025-09-23;09:10:08;charging;4.197;23;34
2025-09-23;09:11:36;charging;4.197;22;40
2025-09-23;09:13:04;charging;4.197;22;46
2025-09-23;09:14:32;charging;4.197;22;51
2025-09-23;09:16:00;charging;4.197;22;57
2025-09-23;09:17:27;charging;4.197;22;62
2025-09-23;09:18:56;charging;4.197;22;68
2025-09-23;09:20:24;charging;4.197;22;73
2025-09-23;09:21:51;charging;4.197;22;79
2025-09-23;09:23:20;charging;4.197;21;84
2025-09-23;09:24:48;charging;4.197;21;89
2025-09-23;09:26:16;charging;4.197;21;95
2025-09-23;09:27:44;charging;4.197;21;100
2025-09-23;09:29:12;charging;4.197;21;105
2025-09-23;09:30:40;charging;4.197;21;111
2025-09-23;09:32:07;charging;4.197;20;116
2025-09-23;09:33:35;charging;4.197;20;121
2025-09-23;09:35:03;charging;4.199;20;126
2025-09-23;09:36:31;charging;4.2;20;131
2025-09-23;09:37:59;charging;4.197;20;136
2025-09-23;09:39:28;charging;4.197;20;141
2025-09-23;09:40:55;charging;4.197;20;147
2025-09-23;09:42:23;charging;4.197;20;152
2025-09-23;09:43:51;charging;4.205;20;157
2025-09-23;09:45:19;charging;4.197;20;162
2025-09-23;09:46:47;charging;4.201;19;166
2025-09-23;09:48:15;charging;4.198;19;171
2025-09-23;09:49:43;charging;4.196;20;176
2025-09-23;09:51:11;charging;4.202;19;181
2025-09-23;09:52:39;charging;4.201;19;186
2025-09-23;09:54:07;charging;4.197;19;191
2025-09-23;09:55:35;charging;4.196;19;196
2025-09-23;09:57:03;charging;4.196;19;200
2025-09-23;09:58:31;charging;4.196;18;205
2025-09-23;09:59:59;charging;4.196;19;210
2025-09-23;10:01:27;charging;4.194;18;215
2025-09-23;10:02:55;charging;4.197;19;219
2025-09-23;10:04:23;charging;4.197;18;224
2025-09-23;10:05:51;charging;4.196;18;229
2025-09-23;10:07:19;charging;4.197;18;233
2025-09-23;10:08:47;charging;4.197;18;238
2025-09-23;10:10:15;charging;4.197;18;242
2025-09-23;10:11:43;charging;4.196;18;247
2025-09-23;10:13:11;charging;4.197;18;251
2025-09-23;10:14:39;charging;4.197;18;256
2025-09-23;10:16:07;charging;4.197;18;260
2025-09-23;10:17:35;charging;4.197;17;265
2025-09-23;10:19:03;charging;4.196;17;269
2025-09-23;10:20:31;charging;4.197;17;273
2025-09-23;10:21:59;charging;4.197;17;278
2025-09-23;10:23:27;charging;4.196;17;282
2025-09-23;10:24:55;charging;4.196;17;286
2025-09-23;10:26:23;charging;4.197;17;291
2025-09-23;10:27:51;charging;4.197;16;295
2025-09-23;10:29:19;charging;4.197;16;299
2025-09-23;10:30:47;charging;4.197;17;303
2025-09-23;10:32:15;charging;4.196;16;307
2025-09-23;10:33:43;charging;4.196;16;312
2025-09-23;10:35:11;charging;4.197;16;316
2025-09-23;10:36:39;charging;4.197;16;320
2025-09-23;10:38:07;charging;4.197;16;324
2025-09-23;10:39:35;charging;4.197;16;328
2025-09-23;10:41:03;charging;4.197;16;332
2025-09-23;10:42:31;charging;4.197;16;336
2025-09-23;10:43:59;charging;4.197;15;340
2025-09-23;10:45:27;charging;4.197;15;343
2025-09-23;10:46:55;charging;4.197;15;347
2025-09-23;10:48:23;charging;4.197;15;351
2025-09-23;10:49:51;charging;4.197;15;355
2025-09-23;10:51:19;charging;4.197;15;359
2025-09-23;10:52:47;charging;4.197;15;363
2025-09-23;10:54:15;charging;4.197;15;366
2025-09-23;10:55:43;charging;4.197;15;370
2025-09-23;10:57:11;charging;4.197;15;374
2025-09-23;10:58:39;charging;4.197;14;378
2025-09-23;11:00:07;charging;4.197;15;381
2025-09-23;11:01:35;charging;4.197;14;385
2025-09-23;11:03:03;charging;4.197;14;389
2025-09-23;11:04:31;charging;4.197;14;392
2025-09-23;11:05:59;charging;4.197;14;396
2025-09-23;11:07:27;charging;4.197;14;399
2025-09-23;11:08:55;charging;4.197;14;403
2025-09-23;11:10:23;charging;4.197;14;407
2025-09-23;11:11:51;charging;4.197;14;410
2025-09-23;11:13:19;charging;4.197;14;414
2025-09-23;11:14:47;charging;4.197;14;417
2025-09-23;11:16:15;charging;4.197;13;420
2025-09-23;11:17:43;charging;4.197;13;424
2025-09-23;11:19:11;charging;4.197;13;427
2025-09-23;11:20:39;charging;4.197;13;431
2025-09-23;11:22:07;charging;4.197;13;434
2025-09-23;11:23:35;charging;4.197;13;437
2025-09-23;11:25:03;charging;4.202;13;441
2025-09-23;11:26:31;charging;4.197;13;444
2025-09-23;11:27:59;charging;4.197;12;447
2025-09-23;11:29:27;charging;4.196;12;450
2025-09-23;11:30:55;charging;4.203;12;454
2025-09-23;11:32:23;charging;4.196;12;457
2025-09-23;11:33:51;charging;4.197;12;460
2025-09-23;11:35:19;charging;4.201;12;463
2025-09-23;11:36:47;charging;4.196;12;466
2025-09-23;11:38:15;charging;4.197;12;469
2025-09-23;11:39:43;charging;4.196;12;472
2025-09-23;11:41:11;charging;4.196;11;475
2025-09-23;11:42:39;charging;4.196;12;478
2025-09-23;11:44:07;charging;4.196;12;481
2025-09-23;11:45:35;charging;4.196;12;484
2025-09-23;11:47:03;charging;4.197;12;487
2025-09-23;11:48:31;charging;4.197;11;490
2025-09-23;11:49:59;charging;4.197;11;493
2025-09-23;11:51:27;charging;4.197;11;496
2025-09-23;11:52:55;charging;4.197;11;499
2025-09-23;11:54:23;charging;4.197;11;501
2025-09-23;11:55:51;charging;4.197;11;504
2025-09-23;11:57:19;charging;4.197;11;507
2025-09-23;11:58:47;charging;4.197;11;510
2025-09-23;12:00:15;charging;4.197;11;513
2025-09-23;12:01:43;charging;4.197;11;515
2025-09-23;12:03:11;charging;4.197;10;518
2025-09-23;12:04:39;charging;4.197;10;521
2025-09-23;12:06:07;charging;4.197;11;523
2025-09-23;12:07:35;charging;4.197;10;526
2025-09-23;12:09:03;charging;4.197;10;529
2025-09-23;12:10:31;charging;4.197;10;531
2025-09-23;12:11:59;charging;4.197;10;534
2025-09-23;12:13:27;charging;4.197;10;537
2025-09-23;12:14:55;charging;4.197;10;539
2025-09-23;12:16:23;charging;4.197;10;542
2025-09-23;12:17:51;charging;4.197;10;545
2025-09-23;12:19:19;charging;4.197;10;547
2025-09-23;12:20:47;charging;4.197;10;550
2025-09-23;12:22:15;charging;4.197;10;552
2025-09-23;12:23:43;charging;4.197;10;555
2025-09-23;12:25:10;charging;4.197;10;557
2025-09-23;12:26:38;charging;4.197;10;560
2025-09-23;12:28:07;charging;4.197;10;562
2025-09-23;12:29:35;charging;4.197;10;565
2025-09-23;12:31:03;charging;4.197;10;568
2025-09-23;12:32:31;charging;4.197;10;570
2025-09-23;12:33:58;charging;4.197;10;573
2025-09-23;12:35:27;charging;4.197;10;575
2025-09-23;12:36:54;charging;4.197;10;578
2025-09-23;12:38:23;charging;4.197;10;580
2025-09-23;12:39:50;charging;4.197;10;583
2025-09-23;12:41:19;charging;4.197;9;585
2025-09-23;12:42:47;charging;4.196;9;587
2025-09-23;12:44:14;charging;4.196;9;590
2025-09-23;12:45:42;charging;4.196;9;592
2025-09-23;12:47:10;charging;4.196;9;595
2025-09-23;12:48:38;charging;4.197;10;597
2025-09-23;12:50:06;charging;4.197;10;600
2025-09-23;12:51:34;charging;4.196;9;602
2025-09-23;12:53:02;charging;4.197;9;604
2025-09-23;12:54:30;charging;4.197;9;607
2025-09-23;12:55:58;charging;4.197;9;609
2025-09-23;12:57:26;charging;4.197;9;611
2025-09-23;12:58:54;charging;4.197;10;614
2025-09-23;13:00:22;charging;4.196;9;616
2025-09-23;13:01:50;charging;4.197;9;618
2025-09-23;13:03:18;charging;4.197;9;621
2025-09-23;13:04:46;charging;4.197;9;623
2025-09-23;13:06:14;charging;4.197;9;625
2025-09-23;13:07:42;charging;4.197;8;627
2025-09-23;13:09:10;charging;4.197;8;630
2025-09-23;13:10:38;charging;4.197;8;632
2025-09-23;13:12:06;charging;4.197;8;634
2025-09-23;13:13:34;charging;4.197;8;636
2025-09-23;13:15:02;charging;4.197;8;638
2025-09-23;13:16:30;charging;4.197;8;641
2025-09-23;13:17:58;charging;4.197;8;643
2025-09-23;13:19:26;charging;4.197;8;645
2025-09-23;13:20:54;charging;4.197;8;647
2025-09-23;13:22:22;charging;4.197;8;649
2025-09-23;13:23:50;charging;4.197;8;651
2025-09-23;13:25:18;charging;4.197;8;653
2025-09-23;13:26:46;charging;4.197;8;655
2025-09-23;13:28:14;charging;4.197;8;657
2025-09-23;13:29:42;charging;4.197;8;659
2025-09-23;13:31:10;charging;4.197;8;661
2025-09-23;13:32:38;charging;4.197;8;663
2025-09-23;13:34:06;charging;4.197;8;665
2025-09-23;13:35:34;charging;4.197;8;667
2025-09-23;13:37:02;charging;4.197;7;669
2025-09-23;13:38:30;charging;4.196;7;671
2025-09-23;13:39:58;charging;4.197;7;673
2025-09-23;13:41:26;charging;4.197;8;675
2025-09-23;13:42:54;charging;4.197;7;677
2025-09-23;13:44:22;charging;4.197;7;679
2025-09-23;13:45:50;charging;4.197;7;680
2025-09-23;13:47:18;charging;4.197;7;682
2025-09-23;13:48:46;charging;4.197;7;684
2025-09-23;13:50:14;charging;4.197;7;686
2025-09-23;13:51:42;charging;4.196;7;688
2025-09-23;13:53:10;charging;4.197;7;689
2025-09-23;13:54:38;charging;4.197;7;691
2025-09-23;13:56:06;charging;4.197;7;693
2025-09-23;13:57:34;charging;4.197;7;695
2025-09-23;13:59:02;charging;4.197;6;696
2025-09-23;14:00:30;charging;4.197;6;698
2025-09-23;14:01:58;charging;4.197;6;700
2025-09-23;14:03:26;charging;4.197;6;701
2025-09-23;14:04:54;charging;4.197;6;703
2025-09-23;14:06:22;charging;4.197;6;705
2025-09-23;14:07:50;charging;4.197;6;706
2025-09-23;14:09:18;charging;4.197;6;708
2025-09-23;14:10:46;charging;4.197;6;710
2025-09-23;14:12:14;charging;4.197;6;711
2025-09-23;14:13:42;charging;4.197;6;713
2025-09-23;14:15:10;charging;4.197;6;715
2025-09-23;14:16:38;charging;4.197;6;716
2025-09-23;14:18:06;charging;4.197;6;718
2025-09-23;14:19:34;charging;4.197;6;719
2025-09-23;14:21:02;charging;4.197;6;721
2025-09-23;14:22:30;charging;4.197;6;722
2025-09-23;14:23:58;charging;4.197;6;724
2025-09-23;14:25:26;charging;4.197;6;725
2025-09-23;14:26:54;charging;4.197;6;727
2025-09-23;14:28:22;charging;4.197;6;728
2025-09-23;14:29:50;charging;4.197;6;730
2025-09-23;14:31:18;charging;4.197;6;731
2025-09-23;14:32:46;charging;4.197;5;733
2025-09-23;14:34:14;charging;4.197;5;734
2025-09-23;14:35:42;charging;4.197;5;736
2025-09-23;14:37:10;charging;4.197;5;737
2025-09-23;14:38:38;charging;4.197;5;739
2025-09-23;14:40:06;charging;4.197;5;740
2025-09-23;14:41:34;charging;4.203;5;742
2025-09-23;14:43:02;charging;4.203;5;743
2025-09-23;14:44:30;charging;4.197;5;744
2025-09-23;14:45:58;charging;4.197;5;746
2025-09-23;14:47:26;rest;4.124;0;747

File: 1charging_1000_4.csv
date;system_time;battery_state;voltage[V];current[mA];capacity[mAh]
2025-09-23;17:24:49;charging;4.197;21;0
2025-09-23;17:25:15;charging;4.196;17;1
2025-09-23;17:25:40;charging;4.197;17;3
2025-09-23;17:26:07;charging;4.197;17;4
2025-09-23;17:26:33;charging;4.201;18;5
2025-09-23;17:26:59;charging;4.197;20;7
2025-09-23;17:27:25;charging;4.197;16;8
2025-09-23;17:27:51;charging;4.196;17;9
2025-09-23;17:28:16;charging;4.197;15;10
2025-09-23;17:28:43;charging;4.197;15;12
2025-09-23;17:29:09;charging;4.201;14;13
2025-09-23;17:29:35;charging;4.19;12;14
2025-09-23;17:30:01;charging;4.197;12;15
2025-09-23;17:30:27;charging;4.197;7;15
2025-09-23;17:30:53;charging;4.196;8;16
2025-09-23;17:31:18;charging;4.197;7;17
2025-09-23;17:31:45;charging;4.196;7;17
2025-09-23;17:32:11;charging;4.197;7;18
2025-09-23;17:32:37;charging;4.196;7;18
2025-09-23;17:33:02;charging;4.197;6;19
2025-09-23;17:33:29;charging;4.197;6;19
2025-09-23;17:33:55;charging;4.196;8;20
2025-09-23;17:34:21;charging;4.201;8;21
2025-09-23;17:34:46;charging;4.196;8;21
2025-09-23;17:35:12;charging;4.197;8;22
2025-09-23;17:35:39;charging;4.198;8;22
2025-09-23;17:36:04;charging;4.197;8;23
2025-09-23;17:36:31;charging;4.197;9;24
2025-09-23;17:36:56;charging;4.2;8;24
2025-09-23;17:37:23;charging;4.193;9;25
2025-09-23;17:37:49;charging;4.19;7;26
2025-09-23;17:38:14;charging;4.2;7;26
2025-09-23;17:38:40;charging;4.195;7;27
2025-09-23;17:39:06;charging;4.197;8;27
2025-09-23;17:39:33;charging;4.197;7;28
2025-09-23;17:39:58;charging;4.204;7;29
2025-09-23;17:40:24;charging;4.196;7;29
2025-09-23;17:40:50;charging;4.196;7;30
2025-09-23;17:41:16;charging;4.198;7;30
2025-09-23;17:41:42;charging;4.202;7;31
2025-09-23;17:42:08;charging;4.2;7;31
2025-09-23;17:42:34;charging;4.197;7;32
2025-09-23;17:43:00;charging;4.2;7;32
2025-09-23;17:43:26;charging;4.196;7;33
2025-09-23;17:43:52;charging;4.197;6;33
2025-09-23;17:44:18;charging;4.197;7;34
2025-09-23;17:44:44;charging;4.196;7;35
2025-09-23;17:45:10;charging;4.197;7;35
2025-09-23;17:45:36;charging;4.198;7;36
2025-09-23;17:46:02;charging;4.196;6;36
2025-09-23;17:46:28;charging;4.197;6;37
2025-09-23;17:46:54;charging;4.196;6;37
2025-09-23;17:47:20;charging;4.197;6;38
2025-09-23;17:47:46;charging;4.197;6;38
2025-09-23;17:48:12;charging;4.196;6;39
2025-09-23;17:48:38;charging;4.196;6;39
2025-09-23;17:49:04;charging;4.197;6;40
2025-09-23;17:49:30;charging;4.197;6;40
2025-09-23;17:49:56;charging;4.197;6;41
2025-09-23;17:50:22;charging;4.197;6;41
2025-09-23;17:50:48;charging;4.196;6;42
2025-09-23;17:51:14;charging;4.196;6;42
2025-09-23;17:51:40;charging;4.196;6;43
2025-09-23;17:52:06;charging;4.196;6;43
2025-09-23;17:52:32;charging;4.196;6;44
2025-09-23;17:52:58;charging;4.197;6;44
2025-09-23;17:53:24;charging;4.197;6;45
2025-09-23;17:53:50;charging;4.197;6;45
2025-09-23;17:54:16;charging;4.196;6;46
2025-09-23;17:54:42;charging;4.197;6;46
2025-09-23;17:55:08;charging;4.197;6;47
2025-09-23;17:55:34;charging;4.196;6;47
2025-09-23;17:56:00;charging;4.197;6;48
2025-09-23;17:56:26;charging;4.197;6;48
2025-09-23;17:56:52;charging;4.197;6;49
2025-09-23;17:57:18;charging;4.196;6;49
2025-09-23;17:57:44;charging;4.197;6;50
2025-09-23;17:58:10;charging;4.202;6;50
2025-09-23;17:58:36;charging;4.198;6;51
2025-09-23;17:59:02;charging;4.197;6;51
2025-09-23;17:59:28;charging;4.193;6;52
2025-09-23;17:59:54;charging;4.195;6;52
2025-09-23;18:00:20;charging;4.196;6;53
2025-09-23;18:00:46;charging;4.197;6;53
2025-09-23;18:01:12;charging;4.196;6;54
2025-09-23;18:01:38;charging;4.196;6;54
2025-09-23;18:02:04;charging;4.197;6;55
2025-09-23;18:02:30;charging;4.197;6;55
2025-09-23;18:02:56;charging;4.196;6;56
2025-09-23;18:03:22;charging;4.197;6;56
2025-09-23;18:03:48;charging;4.197;6;57
2025-09-23;18:04:14;charging;4.196;6;57
2025-09-23;18:04:40;charging;4.197;6;58
2025-09-23;18:05:06;charging;4.196;6;58
2025-09-23;18:05:32;charging;4.196;6;59
2025-09-23;18:05:58;charging;4.197;6;59
2025-09-23;18:06:24;charging;4.197;6;59
2025-09-23;18:06:50;charging;4.197;6;60
2025-09-23;18:07:16;charging;4.196;6;60
2025-09-23;18:07:42;charging;4.197;6;61
2025-09-23;18:08:08;charging;4.197;6;61
2025-09-23;18:08:34;charging;4.197;6;62
2025-09-23;18:09:00;charging;4.197;6;62
2025-09-23;18:09:26;charging;4.197;6;63
2025-09-23;18:09:52;charging;4.197;6;63
2025-09-23;18:10:18;charging;4.197;6;64
2025-09-23;18:10:44;charging;4.197;6;64
2025-09-23;18:11:10;charging;4.197;6;65
2025-09-23;18:11:36;charging;4.196;6;65
2025-09-23;18:12:02;charging;4.197;6;66
2025-09-23;18:12:28;charging;4.197;6;66
2025-09-23;18:12:54;charging;4.197;6;67
2025-09-23;18:13:20;charging;4.197;6;67
2025-09-23;18:13:46;charging;4.197;6;68
2025-09-23;18:14:12;charging;4.197;6;68
2025-09-23;18:14:38;charging;4.196;6;69
2025-09-23;18:15:04;charging;4.196;6;69
2025-09-23;18:15:30;charging;4.197;6;70
2025-09-23;18:15:56;charging;4.197;6;70
2025-09-23;18:16:22;charging;4.197;6;70
2025-09-23;18:16:48;charging;4.197;6;71
2025-09-23;18:17:14;charging;4.197;6;71
2025-09-23;18:17:40;charging;4.197;6;72
2025-09-23;18:18:06;charging;4.197;6;72
2025-09-23;18:18:32;charging;4.197;6;73
2025-09-23;18:18:58;charging;4.197;6;73
2025-09-23;18:19:24;charging;4.197;6;74
2025-09-23;18:19:50;charging;4.197;6;74
2025-09-23;18:20:16;charging;4.197;6;75
2025-09-23;18:20:42;charging;4.194;6;75
2025-09-23;18:21:08;charging;4.197;6;76
2025-09-23;18:21:34;charging;4.197;6;76
2025-09-23;18:22:00;charging;4.19;6;77
2025-09-23;18:22:26;charging;4.196;6;77
2025-09-23;18:22:52;charging;4.197;6;78
2025-09-23;18:23:18;charging;4.197;6;78
2025-09-23;18:23:44;charging;4.197;6;79
2025-09-23;18:24:10;charging;4.197;6;79
2025-09-23;18:24:36;charging;4.197;6;80
2025-09-23;18:25:02;charging;4.196;6;80
2025-09-23;18:25:28;charging;4.197;6;81
2025-09-23;18:25:54;charging;4.197;6;81
2025-09-23;18:26:20;charging;4.197;6;81
2025-09-23;18:26:46;charging;4.196;6;82
2025-09-23;18:27:12;charging;4.197;6;82
2025-09-23;18:27:38;charging;4.197;6;83
2025-09-23;18:28:04;charging;4.197;6;83
2025-09-23;18:28:30;charging;4.197;6;84
2025-09-23;18:28:56;charging;4.197;6;84
2025-09-23;18:29:22;charging;4.197;6;85
2025-09-23;18:29:48;charging;4.197;6;85
2025-09-23;18:30:14;charging;4.197;5;86
2025-09-23;18:30:40;charging;4.197;5;86
2025-09-23;18:31:06;charging;4.197;5;86
2025-09-23;18:31:32;charging;4.197;5;87
2025-09-23;18:31:58;charging;4.197;5;87
2025-09-23;18:32:24;charging;4.197;6;88
2025-09-23;18:32:50;charging;4.197;6;88
2025-09-23;18:33:16;charging;4.197;6;89
2025-09-23;18:33:42;charging;4.197;6;89
2025-09-23;18:34:08;charging;4.197;6;89
2025-09-23;18:34:34;charging;4.197;6;90
2025-09-23;18:35:00;charging;4.197;6;90
2025-09-23;18:35:26;charging;4.197;6;91
2025-09-23;18:35:52;charging;4.197;6;91
2025-09-23;18:36:18;charging;4.197;6;92
2025-09-23;18:36:44;charging;4.197;6;92
2025-09-23;18:37:10;charging;4.197;6;93
2025-09-23;18:37:36;charging;4.197;6;93
2025-09-23;18:38:02;charging;4.197;6;94
2025-09-23;18:38:28;charging;4.196;6;94
2025-09-23;18:38:54;charging;4.197;6;95
2025-09-23;18:39:20;charging;4.197;6;95
2025-09-23;18:39:46;charging;4.197;6;95
2025-09-23;18:40:12;charging;4.197;6;96
2025-09-23;18:40:38;charging;4.197;6;96
2025-09-23;18:41:04;charging;4.197;6;97
2025-09-23;18:41:30;charging;4.197;6;97
2025-09-23;18:41:56;charging;4.197;6;98
2025-09-23;18:42:22;charging;4.197;6;98
2025-09-23;18:42:48;charging;4.197;6;99
2025-09-23;18:43:14;charging;4.197;6;99
2025-09-23;18:43:40;charging;4.197;6;100
2025-09-23;18:44:06;charging;4.197;6;100
2025-09-23;18:44:32;charging;4.199;6;100
2025-09-23;18:44:58;charging;4.189;5;101
2025-09-23;18:45:24;charging;4.189;5;101
2025-09-23;18:45:50;charging;4.19;5;102
2025-09-23;18:46:16;charging;4.193;5;102
2025-09-23;18:46:42;charging;4.197;6;103
2025-09-23;18:47:08;charging;4.197;6;103
2025-09-23;18:47:34;charging;4.197;6;104
2025-09-23;18:48:00;charging;4.197;6;104
2025-09-23;18:48:26;charging;4.197;6;105
2025-09-23;18:48:52;charging;4.197;6;105
2025-09-23;18:49:18;charging;4.196;6;105
2025-09-23;18:49:44;charging;4.197;6;106
2025-09-23;18:50:10;charging;4.197;6;106
2025-09-23;18:50:36;charging;4.197;6;107
2025-09-23;18:51:02;charging;4.197;6;107
2025-09-23;18:51:28;charging;4.196;6;108
2025-09-23;18:51:54;charging;4.197;6;108
2025-09-23;18:52:20;charging;4.197;5;109
2025-09-23;18:52:46;charging;4.196;6;109
2025-09-23;18:53:12;charging;4.197;6;109
2025-09-23;18:53:38;charging;4.197;6;110
2025-09-23;18:54:04;charging;4.197;6;110
2025-09-23;18:54:30;charging;4.197;5;111
2025-09-23;18:54:56;charging;4.197;5;111
2025-09-23;18:55:22;charging;4.197;5;112
2025-09-23;18:55:48;charging;4.197;6;112
2025-09-23;18:56:14;charging;4.197;5;112
2025-09-23;18:56:40;charging;4.197;6;113
2025-09-23;18:57:06;charging;4.197;5;113
2025-09-23;18:57:32;charging;4.197;6;114
2025-09-23;18:57:58;charging;4.197;5;114
2025-09-23;18:58:24;charging;4.197;5;115
2025-09-23;18:58:50;charging;4.197;5;115
2025-09-23;18:59:16;charging;4.197;5;116
2025-09-23;18:59:42;charging;4.197;5;116
2025-09-23;19:00:08;charging;4.197;5;116
2025-09-23;19:00:34;charging;4.197;6;117
2025-09-23;19:01:00;charging;4.197;6;117
2025-09-23;19:01:26;charging;4.197;6;118
2025-09-23;19:01:52;charging;4.197;5;118
2025-09-23;19:02:18;charging;4.197;5;119
2025-09-23;19:02:44;charging;4.197;5;119
2025-09-23;19:03:10;charging;4.197;5;119
2025-09-23;19:03:36;charging;4.197;5;120
2025-09-23;19:04:02;charging;4.197;5;120
2025-09-23;19:04:28;charging;4.197;5;121
2025-09-23;19:04:54;charging;4.197;5;121
2025-09-23;19:05:20;charging;4.197;6;121
2025-09-23;19:05:46;charging;4.197;5;122
2025-09-23;19:06:12;charging;4.197;5;122
2025-09-23;19:06:38;charging;4.197;5;123
2025-09-23;19:07:04;charging;4.197;5;123
2025-09-23;19:07:30;charging;4.197;6;123
2025-09-23;19:07:56;charging;4.197;5;124
2025-09-23;19:08:22;charging;4.197;5;124
2025-09-23;19:08:48;charging;4.197;5;125
2025-09-23;19:09:14;charging;4.197;5;125
2025-09-23;19:09:40;charging;4.197;5;125
2025-09-23;19:10:06;charging;4.197;5;126
2025-09-23;19:10:32;charging;4.197;5;126
2025-09-23;19:10:58;charging;4.197;4;127
2025-09-23;19:11:24;charging;4.197;5;127
2025-09-23;19:11:50;charging;4.197;4;127
2025-09-23;19:12:06;rest;3.85;0;127