Folder: prof.Vanessa/monitor_Icharger (part 3)

File: data_original_1_1000_1.csv
date;time;battery_state;voltage[V];current[mA];capacity[mAh]
2025-09-23;08:51:02;charging;4.19;7;6
2025-09-23;08:51:04;rest;4.138;0;6
2025-09-23;08:51:06;rest;3.865;0;6
2025-09-23;08:51:08;rest;3.865;0;6
2025-09-23;08:51:10;rest;3.865;0;6
2025-09-23;08:51:12;rest;3.865;0;6
2025-09-23;08:51:14;rest;3.864;0;6
2025-09-23;08:51:16;rest;3.864;0;6
2025-09-23;08:51:18;rest;3.863;0;6
2025-09-23;08:51:20;rest;3.865;0;6
2025-09-23;08:51:22;rest;3.865;0;6
2025-09-23;08:51:24;rest;3.863;0;6
2025-09-23;08:51:26;rest;3.864;0;6
2025-09-23;08:51:28;rest;3.861;0;6
2025-09-23;08:51:30;rest;3.863;0;6
2025-09-23;08:51:32;rest;3.861;0;6
2025-09-23;08:51:34;rest;3.861;0;6
2025-09-23;08:51:36;rest;3.861;0;6
2025-09-23;08:51:38;rest;3.863;0;6
2025-09-23;08:51:40;rest;3.861;0;6
2025-09-23;08:51:42;rest;3.859;0;6
2025-09-23;08:51:44;rest;3.859;0;6
2025-09-23;08:51:46;rest;3.857;0;6
2025-09-23;08:51:48;rest;3.859;0;6
2025-09-23;08:51:50;rest;3.86;0;6
2025-09-23;08:51:52;rest;3.857;0;6
2025-09-23;08:51:54;rest;3.858;0;6
2025-09-23;08:51:56;rest;3.857;0;6
2025-09-23;08:51:58;rest;3.857;0;6
2025-09-23;08:52:00;rest;3.863;0;6
2025-09-23;08:52:02;rest;3.857;0;6
2025-09-23;08:52:04;rest;3.857;0;6
2025-09-23;08:52:06;rest;3.858;0;6
2025-09-23;08:52:08;rest;3.857;0;6
2025-09-23;08:52:10;rest;3.858;0;6
2025-09-23;08:52:12;rest;3.863;0;6
2025-09-23;08:52:14;rest;3.857;0;6
2025-09-23;08:52:16;rest;3.857;0;6
2025-09-23;08:52:18;rest;3.857;0;6
2025-09-23;08:52:20;rest;3.857;0;6
2025-09-23;08:52:22;rest;3.857;0;6
2025-09-23;08:52:24;rest;3.857;0;6
2025-09-23;08:52:26;rest;3.857;0;6
2025-09-23;08:52:28;rest;3.857;0;6
2025-09-23;08:52:30;rest;3.865;0;6
2025-09-23;08:52:32;rest;3.863;0;6
2025-09-23;08:52:34;rest;3.862;0;6
2025-09-23;08:52:36;rest;3.863;0;6
2025-09-23;08:52:38;rest;3.857;0;6
2025-09-23;08:52:40;rest;3.857;0;6
2025-09-23;08:52:42;rest;3.861;0;6
2025-09-23;08:52:44;rest;3.857;0;6
2025-09-23;08:52:46;rest;3.857;0;6
2025-09-23;08:52:48;rest;3.857;0;6
2025-09-23;08:52:50;rest;3.857;0;6
2025-09-23;08:52:52;rest;3.857;0;6
2025-09-23;08:52:54;rest;3.857;0;6
2025-09-23;08:52:56;rest;3.857;0;6
2025-09-23;08:52:58;rest;3.857;0;6
2025-09-23;08:53:00;rest;3.857;0;6
2025-09-23;08:53:02;rest;3.857;0;6
2025-09-23;08:53:04;rest;3.863;0;6
2025-09-23;08:53:06;rest;3.857;0;6
2025-09-23;08:53:08;rest;3.857;0;6
2025-09-23;08:53:10;rest;3.857;0;6
2025-09-23;08:53:12;rest;3.857;0;6
2025-09-23;08:53:14;rest;3.857;0;6
2025-09-23;08:53:16;rest;3.857;0;6
2025-09-23;08:53:18;rest;3.857;0;6
2025-09-23;08:53:20;rest;3.857;0;6
2025-09-23;08:53:22;rest;3.857;0;6
2025-09-23;08:53:24;rest;3.857;0;6
2025-09-23;08:53:26;rest;3.857;0;6
2025-09-23;08:53:28;rest;3.857;0;6
2025-09-23;08:53:30;rest;3.864;0;6
2025-09-23;08:53:32;rest;3.857;0;6
2025-09-23;08:53:34;rest;3.857;0;6
2025-09-23;08:53:36;rest;3.863;0;6
2025-09-23;08:53:38;rest;3.864;0;6
2025-09-23;08:53:40;rest;3.857;0;6
2025-09-23;08:53:42;rest;3.857;0;6
2025-09-23;08:53:44;rest;3.857;0;6
2025-09-23;08:53:46;rest;3.864;0;6
2025-09-23;08:53:48;rest;3.857;0;6
2025-09-23;08:53:50;rest;3.857;0;6
2025-09-23;08:53:52;rest;3.857;0;6
2025-09-23;08:53:54;rest;3.857;0;6
2025-09-23;08:53:56;rest;3.863;0;6
2025-09-23;08:53:58;rest;3.857;0;6
2025-09-23;08:54:00;rest;3.863;0;6
2025-09-23;08:54:02;rest;3.857;0;6
2025-09-23;08:54:04;rest;3.857;0;6
2025-09-23;08:54:06;rest;3.857;0;6
2025-09-23;08:54:08;rest;3.857;0;6
2025-09-23;08:54:10;rest;3.857;0;6
2025-09-23;08:54:12;rest;3.857;0;6
2025-09-23;08:54:14;rest;3.857;0;6
2025-09-23;08:54:16;rest;3.857;0;6
2025-09-23;08:54:18;rest;3.857;0;6
2025-09-23;08:54:20;rest;3.857;0;6
2025-09-23;08:54:22;rest;3.857;0;6
2025-09-23;08:54:24;rest;3.857;0;6
2025-09-23;08:54:26;rest;3.857;0;6
2025-09-23;08:54:28;rest;3.857;0;6
2025-09-23;08:54:30;rest;3.857;0;6
2025-09-23;08:54:32;rest;3.857;0;6
2025-09-23;08:54:34;rest;3.857;0;6
2025-09-23;08:54:36;rest;3.857;0;6
2025-09-23;08:54:38;rest;3.857;0;6
2025-09-23;08:54:40;rest;3.857;0;6
2025-09-23;08:54:42;rest;3.857;0;6
2025-09-23;08:54:44;rest;3.857;0;6
2025-09-23;08:54:46;rest;3.857;0;6
2025-09-23;08:54:48;rest;3.857;0;6
2025-09-23;08:54:50;rest;3.857;0;6
2025-09-23;08:54:52;rest;3.857;0;6
2025-09-23;08:54:54;rest;3.857;0;6
2025-09-23;08:54:56;rest;3.857;0;6
2025-09-23;08:54:58;rest;3.863;0;6
2025-09-23;08:55:00;rest;3.857;0;6
2025-09-23;08:55:02;rest;3.857;0;6
2025-09-23;08:55:04;rest;3.857;0;6
2025-09-23;08:55:06;rest;3.857;0;6
2025-09-23;08:55:08;rest;3.857;0;6
2025-09-23;08:55:10;rest;3.857;0;6
2025-09-23;08:55:12;rest;3.857;0;6
2025-09-23;08:55:14;rest;3.857;0;6
2025-09-23;08:55:16;rest;3.857;0;6
2025-09-23;08:55:18;rest;3.857;0;6
2025-09-23;08:55:20;rest;3.857;0;6
2025-09-23;08:55:22;rest;3.857;0;6
2025-09-23;08:55:24;rest;3.857;0;6
2025-09-23;08:55:26;rest;3.857;0;6
2025-09-23;08:55:28;rest;3.865;0;6
2025-09-23;08:55:30;rest;3.857;0;6
2025-09-23;08:55:32;rest;3.857;0;6
2025-09-23;08:55:34;rest;3.857;0;6
2025-09-23;08:55:36;rest;3.857;0;6
2025-09-23;08:55:38;rest;3.857;0;6
2025-09-23;08:55:40;rest;3.857;0;6
2025-09-23;08:55:42;rest;3.865;0;6
2025-09-23;08:55:44;rest;3.857;0;6
2025-09-23;08:55:46;rest;3.857;0;6
2025-09-23;08:55:48;rest;3.857;0;6
2025-09-23;08:55:50;rest;3.857;0;6
2025-09-23;08:55:52;rest;3.857;0;6
2025-09-23;08:55:54;rest;3.857;0;6
2025-09-23;08:55:56;rest;3.857;0;6
2025-09-23;08:55:58;rest;3.857;0;6
2025-09-23;08:56:00;rest;3.857;0;6
2025-09-23;08:56:02;rest;3.857;0;6
2025-09-23;08:56:04;rest;3.857;4;0
2025-09-23;08:56:06;discharging;3.533;15;0
2025-09-23;08:56:08;discharging;3.308;35;0
2025-09-23;08:56:10;rest;3.003;0;0
2025-09-23;08:57:40;rest;3.857;0;0
2025-09-23;08:59:10;rest;3.857;0;0
2025-09-23;09:00:40;rest;3.857;0;0
2025-09-23;09:02:12;charging;4.197;23;3
2025-09-23;09:03:42;charging;4.197;23;9
2025-09-23;09:05:12;charging;4.197;23;15
2025-09-23;09:06:42;charging;4.197;23;21
2025-09-23;09:08:12;charging;4.197;23;27
2025-09-23;09:09:42;charging;4.197;23;33
2025-09-23;09:11:12;charging;4.197;22;39
2025-09-23;09:12:42;charging;4.197;22;44
2025-09-23;09:14:12;charging;4.197;22;50
2025-09-23;09:15:42;charging;4.197;22;56
2025-09-23;09:17:12;charging;4.197;22;61
2025-09-23;09:18:42;charging;4.197;22;67
2025-09-23;09:20:12;charging;4.197;22;72
2025-09-23;09:21:41;charging;4.197;22;78
2025-09-23;09:23:11;charging;4.197;22;84
2025-09-23;09:24:42;charging;4.197;21;89
2025-09-23;09:26:11;charging;4.197;21;95
2025-09-23;09:27:41;charging;4.202;21;100
2025-09-23;09:29:12;charging;4.197;21;105
2025-09-23;09:30:42;charging;4.196;21;111
2025-09-23;09:32:11;charging;4.197;21;116
2025-09-23;09:33:41;charging;4.196;20;121
2025-09-23;09:35:11;charging;4.196;20;127
2025-09-23;09:36:41;charging;4.2;20;132
2025-09-23;09:38:11;charging;4.197;20;137
2025-09-23;09:39:41;charging;4.197;20;142
2025-09-23;09:41:11;charging;4.197;20;147
2025-09-23;09:42:41;charging;4.197;20;153
2025-09-23;09:44:11;charging;4.197;19;158
2025-09-23;09:45:41;charging;4.197;20;163
2025-09-23;09:47:11;charging;4.205;19;168
2025-09-23;09:48:41;charging;4.197;20;173
2025-09-23;09:50:11;charging;4.196;19;178
2025-09-23;09:51:41;charging;4.196;19;183
2025-09-23;09:53:11;charging;4.202;19;188
2025-09-23;09:54:41;charging;4.201;19;193
2025-09-23;09:56:11;charging;4.2;19;198
2025-09-23;09:57:41;charging;4.196;18;202
2025-09-23;09:59:11;charging;4.196;18;207
2025-09-23;10:00:41;charging;4.197;19;212
2025-09-23;10:02:11;charging;4.203;19;217
[...]
2025-09-23;18:49:38;charging;4.197;6;106
2025-09-23;18:50:08;charging;4.197;6;106
2025-09-23;18:50:38;charging;4.197;6;107
2025-09-23;18:51:08;charging;4.197;6;107
2025-09-23;18:51:38;charging;4.197;6;108
2025-09-23;18:52:08;charging;4.197;6;108
2025-09-23;18:52:38;charging;4.197;5;109
2025-09-23;18:53:08;charging;4.197;6;109
2025-09-23;18:53:38;charging;4.197;6;110
2025-09-23;18:54:08;charging;4.197;6;110
2025-09-23;18:54:38;charging;4.197;5;111
2025-09-23;18:55:08;charging;4.197;5;111
2025-09-23;18:55:38;charging;4.197;5;112
2025-09-23;18:56:08;charging;4.197;5;112
2025-09-23;18:56:38;charging;4.197;5;113
2025-09-23;18:57:08;charging;4.197;5;113
2025-09-23;18:57:38;charging;4.197;5;114
2025-09-23;18:58:08;charging;4.197;5;114
2025-09-23;18:58:38;charging;4.197;5;115
2025-09-23;18:59:08;charging;4.197;6;115
2025-09-23;18:59:38;charging;4.197;5;116
2025-09-23;19:00:08;charging;4.197;5;116
2025-09-23;19:00:38;charging;4.197;6;117
2025-09-23;19:01:08;charging;4.197;6;117
2025-09-23;19:01:38;charging;4.197;6;118
2025-09-23;19:02:08;charging;4.197;5;118
2025-09-23;19:02:38;charging;4.197;5;119
2025-09-23;19:03:08;charging;4.197;5;119
2025-09-23;19:03:38;charging;4.197;5;120
2025-09-23;19:04:08;charging;4.197;5;120
2025-09-23;19:04:38;charging;4.197;6;121
2025-09-23;19:05:08;charging;4.197;5;121
2025-09-23;19:05:38;charging;4.197;5;122
2025-09-23;19:06:08;charging;4.197;5;122
2025-09-23;19:06:38;charging;4.197;5;123
2025-09-23;19:07:08;charging;4.197;5;123
2025-09-23;19:07:38;charging;4.197;6;124
2025-09-23;19:08:08;charging;4.197;5;124
2025-09-23;19:08:38;charging;4.197;5;125
2025-09-23;19:09:08;charging;4.197;5;125
2025-09-23;19:09:38;charging;4.197;5;125
2025-09-23;19:10:08;charging;4.197;5;126
2025-09-23;19:10:38;charging;4.197;5;126
2025-09-23;19:11:08;charging;4.197;4;127
2025-09-23;19:11:38;charging;4.197;4;127
2025-09-23;19:12:08;rest;3.85;0;127
2025-09-23;19:12:38;rest;3.85;0;127
2025-09-23;19:13:08;rest;3.85;0;127
2025-09-23;19:13:38;rest;3.85;0;127
2025-09-23;19:14:08;rest;3.85;0;127
2025-09-23;19:14:38;rest;3.85;0;127
2025-09-23;19:15:08;rest;3.85;0;127
2025-09-23;19:15:38;rest;3.85;0;127
2025-09-23;19:16:08;rest;3.85;0;127
2025-09-23;19:16:38;rest;3.85;0;127
2025-09-23;19:17:02;rest;3.85;0;127
2025-09-23;19:17:04;discharging;3.534;4;0
2025-09-23;19:17:06;discharging;3.361;24;0
2025-09-23;19:17:08;discharging;3.094;47;0
2025-09-23;19:17:10;discharging;3.042;50;0
2025-09-23;19:17:12;discharging;3.077;50;0
2025-09-23;19:17:14;discharging;3.073;50;1
2025-09-23;19:17:16;discharging;3.063;50;1
2025-09-23;19:17:18;discharging;3.06;50;1
2025-09-23;19:17:20;discharging;3.091;50;2
2025-09-23;19:17:22;discharging;3.07;49;2
2025-09-23;19:17:24;discharging;3.04;49;2
2025-09-23;19:17:26;discharging;3.048;49;2
2025-09-23;19:17:28;discharging;3.045;49;3
2025-09-23;19:17:30;discharging;3.053;49;3
2025-09-23;19:17:32;discharging;3.04;50;3
2025-09-23;19:17:34;discharging;3.062;49;3
2025-09-23;19:17:36;discharging;3.04;50;4
2025-09-23;19:17:38;discharging;3.044;50;4
2025-09-23;19:17:40;discharging;3.04;49;4
2025-09-23;19:17:42;discharging;3.055;49;5
2025-09-23;19:17:44;discharging;3.061;49;5
2025-09-23;19:17:46;discharging;3.056;49;5
2025-09-23;19:17:48;discharging;3.053;50;5
2025-09-23;19:17:50;discharging;3.016;49;6
2025-09-23;19:17:52;discharging;3.07;49;6
2025-09-23;19:17:54;discharging;3.04;49;6
2025-09-23;19:17:56;discharging;3.015;49;7
2025-09-23;19:17:58;discharging;3.01;50;7
2025-09-23;19:18:00;discharging;2.997;50;7
2025-09-23;19:18:02;finished;3.834;0;7
2025-09-23;19:18:04;finished;3.839;0;7
2025-09-23;19:18:06;finished;3.841;0;7
2025-09-23;19:18:08;finished;3.84;0;7