Folder: prof.Vanessa/monitor_Icharger (part 2)

File: 1discharging_1_3.csv
date;time;battery_state;voltage[V];current[mA];capacity[mAh]
2025-09-23;16:23:43;discharging;3.285;50;0
2025-09-23;16:23:45;discharging;3.284;50;0
2025-09-23;16:23:47;discharging;3.3;49;1
2025-09-23;16:23:49;discharging;3.31;49;1
2025-09-23;16:23:51;discharging;3.32;49;1
2025-09-23;16:23:53;discharging;3.311;49;1
2025-09-23;16:23:55;discharging;3.311;49;2
2025-09-23;16:23:57;discharging;3.312;50;2
2025-09-23;16:23:59;discharging;3.317;49;2
2025-09-23;16:24:01;discharging;3.318;49;2
2025-09-23;16:24:03;discharging;3.318;50;3
2025-09-23;16:24:05;discharging;3.318;49;3
2025-09-23;16:24:07;discharging;3.318;50;3
2025-09-23;16:24:09;discharging;3.317;49;4
2025-09-23;16:24:11;discharging;3.339;49;4
2025-09-23;16:24:13;discharging;3.325;49;4
2025-09-23;16:24:15;discharging;3.327;50;4
2025-09-23;16:24:17;discharging;3.326;49;5
2025-09-23;16:24:19;discharging;3.325;50;5
2025-09-23;16:24:21;discharging;3.327;49;5
2025-09-23;16:24:23;discharging;3.325;49;6
2025-09-23;16:24:25;discharging;3.326;50;6
2025-09-23;16:24:27;discharging;3.326;49;6
2025-09-23;16:24:29;discharging;3.325;50;6
2025-09-23;16:24:31;discharging;3.327;49;7
2025-09-23;16:24:33;discharging;3.326;49;7
2025-09-23;16:24:35;discharging;3.326;49;7
2025-09-23;16:24:37;discharging;3.326;49;8
2025-09-23;16:24:39;discharging;3.326;50;8
2025-09-23;16:24:41;discharging;3.326;49;8
2025-09-23;16:24:43;discharging;3.326;50;8
2025-09-23;16:24:45;discharging;3.325;49;9
2025-09-23;16:24:47;discharging;3.325;50;9
2025-09-23;16:24:49;discharging;3.325;49;9
2025-09-23;16:24:51;discharging;3.326;49;9
2025-09-23;16:24:53;discharging;3.325;49;10
2025-09-23;16:24:55;discharging;3.326;49;10
2025-09-23;16:24:57;discharging;3.325;50;10
2025-09-23;16:24:59;discharging;3.326;49;11
2025-09-23;16:25:01;discharging;3.325;50;11
2025-09-23;16:25:03;discharging;3.325;49;11
2025-09-23;16:25:05;discharging;3.326;49;11
2025-09-23;16:25:07;discharging;3.325;49;12
2025-09-23;16:25:09;discharging;3.326;49;12
2025-09-23;16:25:11;discharging;3.325;49;12
2025-09-23;16:25:13;discharging;3.326;49;13
2025-09-23;16:25:15;discharging;3.326;50;13
2025-09-23;16:25:17;discharging;3.326;49;13
2025-09-23;16:25:19;discharging;3.339;50;13
2025-09-23;16:25:21;discharging;3.325;49;14
2025-09-23;16:25:23;discharging;3.325;49;14
2025-09-23;16:25:25;discharging;3.325;49;14
2025-09-23;16:25:27;discharging;3.325;49;14
2025-09-23;16:25:29;discharging;3.326;50;15
2025-09-23;16:25:31;discharging;3.325;49;15
2025-09-23;16:25:33;discharging;3.326;49;15
2025-09-23;16:25:35;discharging;3.324;49;16
2025-09-23;16:25:37;discharging;3.325;49;16
2025-09-23;16:25:39;discharging;3.324;49;16
2025-09-23;16:25:41;discharging;3.326;49;16
2025-09-23;16:25:43;discharging;3.323;49;17
2025-09-23;16:25:45;discharging;3.323;49;17
2025-09-23;16:25:47;discharging;3.323;49;17
2025-09-23;16:25:49;discharging;3.322;49;18
2025-09-23;16:25:51;discharging;3.322;49;18
2025-09-23;16:25:53;discharging;3.32;49;18
2025-09-23;16:25:55;discharging;3.321;49;18
2025-09-23;16:25:57;discharging;3.321;49;19
2025-09-23;16:25:59;discharging;3.318;49;19
2025-09-23;16:26:01;discharging;3.317;50;19
2025-09-23;16:26:03;discharging;3.317;49;20
2025-09-23;16:26:05;discharging;3.317;49;20
2025-09-23;16:26:07;discharging;3.317;49;20
2025-09-23;16:26:09;discharging;3.336;49;20
2025-09-23;16:26:11;discharging;3.318;49;21
2025-09-23;16:26:13;discharging;3.318;49;21
2025-09-23;16:26:15;discharging;3.317;50;21
2025-09-23;16:26:17;discharging;3.317;49;21
2025-09-23;16:26:19;discharging;3.317;49;22
2025-09-23;16:26:21;discharging;3.317;49;22
2025-09-23;16:26:23;discharging;3.318;49;22
2025-09-23;16:26:25;discharging;3.318;49;23
2025-09-23;16:26:27;discharging;3.317;49;23
2025-09-23;16:26:29;discharging;3.317;49;23
2025-09-23;16:26:31;discharging;3.317;49;23
2025-09-23;16:26:33;discharging;3.317;49;24
2025-09-23;16:26:35;discharging;3.317;49;24
2025-09-23;16:26:37;discharging;3.317;49;24
2025-09-23;16:26:39;discharging;3.316;49;25
2025-09-23;16:26:41;discharging;3.314;49;25
2025-09-23;16:26:43;discharging;3.317;49;25
2025-09-23;16:26:45;discharging;3.315;50;25
2025-09-23;16:26:47;discharging;3.315;49;26
2025-09-23;16:26:49;discharging;3.316;49;26
2025-09-23;16:26:51;discharging;3.316;49;26
2025-09-23;16:26:53;discharging;3.312;49;26
2025-09-23;16:26:55;discharging;3.314;49;27
2025-09-23;16:26:57;discharging;3.313;50;27
2025-09-23;16:26:59;discharging;3.311;50;27
2025-09-23;16:27:01;discharging;3.315;49;28
2025-09-23;16:27:03;discharging;3.312;49;28
2025-09-23;16:27:05;discharging;3.317;49;28
2025-09-23;16:27:07;discharging;3.311;49;28
2025-09-23;16:27:09;discharging;3.308;50;29
2025-09-23;16:27:11;discharging;3.308;50;29
2025-09-23;16:27:13;discharging;3.31;49;29
2025-09-23;16:27:15;discharging;3.307;50;30
2025-09-23;16:27:17;discharging;3.308;49;30
2025-09-23;16:27:19;discharging;3.307;49;30
2025-09-23;16:27:21;discharging;3.306;50;30
2025-09-23;16:27:23;discharging;3.306;49;31
2025-09-23;16:27:25;discharging;3.307;49;31
2025-09-23;16:27:27;discharging;3.307;49;31
2025-09-23;16:27:29;discharging;3.308;49;32
2025-09-23;16:27:31;discharging;3.307;50;32
2025-09-23;16:27:33;discharging;3.307;50;32
2025-09-23;16:27:35;discharging;3.307;49;32
2025-09-23;16:27:37;discharging;3.307;49;33
2025-09-23;16:27:39;discharging;3.307;49;33
2025-09-23;16:27:41;discharging;3.306;49;33
2025-09-23;16:27:43;discharging;3.305;50;34
2025-09-23;16:27:45;discharging;3.306;50;34
2025-09-23;16:27:47;discharging;3.307;49;34
2025-09-23;16:27:49;discharging;3.306;49;34
2025-09-23;16:27:51;discharging;3.306;49;35
2025-09-23;16:27:53;discharging;3.307;49;35
2025-09-23;16:27:55;discharging;3.306;49;35
2025-09-23;16:27:57;discharging;3.306;50;36
2025-09-23;16:27:59;discharging;3.306;50;36
2025-09-23;16:28:01;discharging;3.306;49;36
2025-09-23;16:28:03;discharging;3.306;49;36
2025-09-23;16:28:05;discharging;3.306;49;37
2025-09-23;16:28:07;discharging;3.306;49;37
2025-09-23;16:28:09;discharging;3.304;50;37
2025-09-23;16:28:11;discharging;3.305;50;37
2025-09-23;16:28:13;discharging;3.304;50;38
2025-09-23;16:28:15;discharging;3.303;49;38
2025-09-23;16:28:17;discharging;3.304;49;38
2025-09-23;16:28:19;discharging;3.304;49;39
2025-09-23;16:28:21;discharging;3.304;49;39
2025-09-23;16:28:23;discharging;3.304;50;39
2025-09-23;16:28:25;discharging;3.303;50;39
2025-09-23;16:28:27;discharging;3.304;49;40
2025-09-23;16:28:29;discharging;3.304;49;40
2025-09-23;16:28:31;discharging;3.304;49;40
2025-09-23;16:28:33;discharging;3.304;49;41
2025-09-23;16:28:35;discharging;3.303;50;41
2025-09-23;16:28:37;discharging;3.303;50;41
2025-09-23;16:28:39;discharging;3.303;50;41
2025-09-23;16:28:41;discharging;3.304;49;42
2025-09-23;16:28:43;discharging;3.302;49;42
2025-09-23;16:28:45;discharging;3.303;49;42
2025-09-23;16:28:47;discharging;3.303;49;43
2025-09-23;16:28:49;discharging;3.301;50;43
2025-09-23;16:28:51;discharging;3.301;50;43
2025-09-23;16:28:53;discharging;3.301;50;43
2025-09-23;16:28:55;discharging;3.302;49;44
2025-09-23;16:28:57;discharging;3.303;49;44
2025-09-23;16:28:59;discharging;3.302;49;44
2025-09-23;16:29:01;discharging;3.301;50;44
2025-09-23;16:29:03;discharging;3.301;50;45
2025-09-23;16:29:05;discharging;3.301;50;45
2025-09-23;16:29:07;discharging;3.302;49;45
2025-09-23;16:29:09;discharging;3.302;49;46
2025-09-23;16:29:11;discharging;3.302;49;46
2025-09-23;16:29:13;discharging;3.302;49;46
[...]
2025-09-23;17:17:01;discharging;3.086;49;448
2025-09-23;17:17:03;discharging;3.084;50;449
2025-09-23;17:17:05;discharging;3.095;49;449
2025-09-23;17:17:07;discharging;3.083;50;449
2025-09-23;17:17:09;discharging;3.099;50;450
2025-09-23;17:17:11;discharging;3.095;50;450
2025-09-23;17:17:13;discharging;3.092;50;450
2025-09-23;17:17:15;discharging;3.089;50;450
2025-09-23;17:17:17;discharging;3.09;50;451
2025-09-23;17:17:19;discharging;3.088;50;451
2025-09-23;17:17:21;discharging;3.085;50;451
2025-09-23;17:17:23;discharging;3.083;49;451
2025-09-23;17:17:25;discharging;3.078;49;452
2025-09-23;17:17:27;discharging;3.086;49;452
2025-09-23;17:17:29;discharging;3.071;50;452
2025-09-23;17:17:31;discharging;3.073;50;453
2025-09-23;17:17:33;discharging;3.089;49;453
2025-09-23;17:17:35;discharging;3.069;49;453
2025-09-23;17:17:37;discharging;3.067;49;453
2025-09-23;17:17:39;discharging;3.068;49;454
2025-09-23;17:17:41;discharging;3.063;49;454
2025-09-23;17:17:43;discharging;3.06;49;454
2025-09-23;17:17:45;discharging;3.083;49;455
2025-09-23;17:17:47;discharging;3.084;50;455
2025-09-23;17:17:49;discharging;3.08;49;455
2025-09-23;17:17:51;discharging;3.063;49;455
2025-09-23;17:17:53;discharging;3.068;50;456
2025-09-23;17:17:55;discharging;3.067;49;456
2025-09-23;17:17:57;discharging;3.063;50;456
2025-09-23;17:17:59;discharging;3.082;49;457
2025-09-23;17:18:01;discharging;3.063;49;457
2025-09-23;17:18:03;discharging;3.063;49;457
2025-09-23;17:18:05;discharging;3.065;49;457
2025-09-23;17:18:07;discharging;3.072;49;458
2025-09-23;17:18:09;discharging;3.062;49;458
2025-09-23;17:18:11;discharging;3.063;49;458
2025-09-23;17:18:13;discharging;3.064;49;458
2025-09-23;17:18:15;discharging;3.07;50;459
2025-09-23;17:18:17;discharging;3.055;49;459
2025-09-23;17:18:19;discharging;3.062;49;459
2025-09-23;17:18:21;discharging;3.058;49;460
2025-09-23;17:18:23;discharging;3.055;49;460
2025-09-23;17:18:25;discharging;3.063;49;460
2025-09-23;17:18:27;discharging;3.065;50;460
2025-09-23;17:18:29;discharging;3.066;49;461
2025-09-23;17:18:31;discharging;3.078;50;461
2025-09-23;17:18:33;discharging;3.057;49;461
2025-09-23;17:18:35;discharging;3.06;49;462
2025-09-23;17:18:37;discharging;3.063;49;462
2025-09-23;17:18:39;discharging;3.063;50;462
2025-09-23;17:18:41;discharging;3.059;49;462
2025-09-23;17:18:43;discharging;3.062;50;463
2025-09-23;17:18:45;discharging;3.063;49;463
2025-09-23;17:18:47;discharging;3.064;50;463
2025-09-23;17:18:49;discharging;3.068;50;463
2025-09-23;17:18:51;discharging;3.068;50;464
2025-09-23;17:18:53;discharging;3.078;49;464
2025-09-23;17:18:55;discharging;3.088;50;464
2025-09-23;17:18:57;discharging;3.071;49;465
2025-09-23;17:18:59;discharging;3.067;49;465
2025-09-23;17:19:01;discharging;3.07;49;465
2025-09-23;17:19:03;discharging;3.068;49;465
2025-09-23;17:19:05;discharging;3.068;50;466
2025-09-23;17:19:07;discharging;3.079;50;466
2025-09-23;17:19:09;discharging;3.068;50;466
2025-09-23;17:19:11;discharging;3.067;50;467
2025-09-23;17:19:13;discharging;3.066;50;467
2025-09-23;17:19:15;discharging;3.094;50;467
2025-09-23;17:19:17;discharging;3.065;50;467
2025-09-23;17:19:19;discharging;3.068;49;468
2025-09-23;17:19:21;discharging;3.072;49;468
2025-09-23;17:19:23;discharging;3.068;50;468
2025-09-23;17:19:25;discharging;3.066;50;469
2025-09-23;17:19:27;discharging;3.068;50;469
2025-09-23;17:19:29;discharging;3.063;49;469
2025-09-23;17:19:31;discharging;3.062;49;469
2025-09-23;17:19:33;discharging;3.07;49;470
2025-09-23;17:19:35;discharging;3.062;49;470
2025-09-23;17:19:37;discharging;2.993;49;470
2025-09-23;17:19:39;rest;3.757;0;470
2025-09-23;17:19:41;rest;3.761;0;470

File: 1discharging_1000_4.csv
date;system_time;battery_state;voltage[V];current[mA];capacity[mAh]
2025-09-23;19:17:08;discharging;3.094;47;0
2025-09-23;19:17:10;discharging;3.042;50;0
2025-09-23;19:17:12;discharging;3.077;50;0
2025-09-23;19:17:14;discharging;3.073;50;1
2025-09-23;19:17:16;discharging;3.063;50;1
2025-09-23;19:17:18;discharging;3.06;50;1
2025-09-23;19:17:20;discharging;3.091;50;2
2025-09-23;19:17:22;discharging;3.07;49;2
2025-09-23;19:17:24;discharging;3.04;49;2
2025-09-23;19:17:26;discharging;3.048;49;2
2025-09-23;19:17:28;discharging;3.045;49;3
2025-09-23;19:17:30;discharging;3.053;49;3
2025-09-23;19:17:32;discharging;3.04;50;3
2025-09-23;19:17:34;discharging;3.062;49;3
2025-09-23;19:17:36;discharging;3.04;50;4
2025-09-23;19:17:38;discharging;3.044;50;4
2025-09-23;19:17:40;discharging;3.04;49;4
2025-09-23;19:17:42;discharging;3.055;49;5
2025-09-23;19:17:44;discharging;3.061;49;5
2025-09-23;19:17:46;discharging;3.056;49;5
2025-09-23;19:17:48;discharging;3.053;50;5
2025-09-23;19:17:50;discharging;3.016;49;6
2025-09-23;19:17:52;discharging;3.07;49;6
2025-09-23;19:17:54;discharging;3.04;49;6
2025-09-23;19:17:56;discharging;3.015;49;7
2025-09-23;19:17:58;discharging;3.01;50;7
2025-09-23;19:18:00;discharging;2.997;50;7
2025-09-23;19:18:02;finished;3.834;0;7
2025-09-23;19:18:04;finished;3.839;0;7

File: 1discharging_1000_11.csv
date;system_hour;cycle_time;battery_state;voltage[V];current[mA];capacity[mAh]
2025-09-23;19:17:08;0:05:00;discharging;3.094;0.47;0
2025-09-23;19:17:10;0:00:02;discharging;3.042;0.5;0
2025-09-23;19:17:12;0:00:04;discharging;3.077;0.5;0
2025-09-23;19:17:14;0:00:06;discharging;3.073;0.5;1
2025-09-23;19:17:16;0:00:08;discharging;3.063;0.5;1
2025-09-23;19:17:18;0:00:10;discharging;3.06;0.5;1
2025-09-23;19:17:20;0:00:12;discharging;3.091;0.5;2
2025-09-23;19:17:22;0:00:14;discharging;3.07;0.49;2
2025-09-23;19:17:24;0:00:16;discharging;3.04;0.49;2
2025-09-23;19:17:26;0:00:18;discharging;3.048;0.49;2
2025-09-23;19:17:28;0:00:20;discharging;3.045;0.49;3
2025-09-23;19:17:30;0:00:22;discharging;3.053;0.49;3
2025-09-23;19:17:32;0:00:24;discharging;3.04;0.5;3
2025-09-23;19:17:34;0:00:26;discharging;3.062;0.49;3
2025-09-23;19:17:36;0:00:28;discharging;3.04;0.5;4
2025-09-23;19:17:38;0:00:30;discharging;3.044;0.5;4
2025-09-23;19:17:40;0:00:32;discharging;3.04;0.49;4
2025-09-23;19:17:42;0:00:34;discharging;3.055;0.49;5
2025-09-23;19:17:44;0:00:36;discharging;3.061;0.49;5
2025-09-23;19:17:46;0:00:38;discharging;3.056;0.49;5
2025-09-23;19:17:48;0:00:40;discharging;3.053;0.5;5
2025-09-23;19:17:50;0:00:42;discharging;3.016;0.49;6
2025-09-23;19:17:52;0:00:44;discharging;3.07;0.49;6
2025-09-23;19:17:54;0:00:46;discharging;3.04;0.49;6
2025-09-23;19:17:56;0:00:48;discharging;3.015;0.49;7
2025-09-23;19:17:58;0:00:50;discharging;3.01;0.5;7
2025-09-23;19:18:00;0:00:52;discharging;2.997;0.5;7
2025-09-23;19:18:02;0:00:54;finished;3.834;0.0;7
2025-09-23;19:18:04;0:00:56;finished;3.839;0.0;7

File: 1rest_1000_13.csv
date;system_hour;cycle_time;battery_state;voltage[V];current[mA];capacity[mAh]
2025-09-23;14:47:28;5:46:08;rest;4.121;0.0;747
2025-09-23;14:47:32;0:00:04;rest;4.12;0.0;747
2025-09-23;14:47:36;0:00:08;rest;4.124;0.0;747
2025-09-23;14:47:40;0:00:12;rest;4.12;0.0;747
2025-09-23;14:47:44;0:00:16;rest;4.12;0.0;747
2025-09-23;14:47:48;0:00:20;rest;4.12;0.0;747
2025-09-23;14:47:52;0:00:24;rest;4.12;0.0;747
2025-09-23;14:47:56;0:00:28;rest;4.12;0.0;747
2025-09-23;14:48:00;0:00:32;rest;4.12;0.0;747
2025-09-23;14:48:04;0:00:36;rest;4.12;0.0;747
2025-09-23;14:48:08;0:00:40;rest;4.125;0.0;747
2025-09-23;14:48:12;0:00:44;rest;4.12;0.0;747
2025-09-23;14:48:16;0:00:48;rest;4.12;0.0;747
2025-09-23;14:48:20;0:00:52;rest;4.12;0.0;747
2025-09-23;14:48:24;0:00:56;rest;4.12;0.0;747
2025-09-23;14:48:28;0:01:00;rest;4.12;0.0;747
2025-09-23;14:48:32;0:01:04;rest;4.12;0.0;747
2025-09-23;14:48:36;0:01:08;rest;4.12;0.0;747
2025-09-23;14:48:40;0:01:12;rest;4.12;0.0;747
2025-09-23;14:48:44;0:01:16;rest;4.12;0.0;747
2025-09-23;14:48:48;0:01:20;rest;4.12;0.0;747
2025-09-23;14:48:52;0:01:24;rest;4.12;0.0;747
2025-09-23;14:48:56;0:01:28;rest;4.12;0.0;747
2025-09-23;14:49:00;0:01:32;rest;4.12;0.0;747
2025-09-23;14:49:04;0:01:36;rest;4.12;0.0;747
2025-09-23;14:49:08;0:01:40;rest;4.12;0.0;747
2025-09-23;14:49:12;0:01:44;rest;4.12;0.0;747
2025-09-23;14:49:16;0:01:48;rest;4.12;0.0;747
2025-09-23;14:49:20;0:01:52;rest;4.12;0.0;747
2025-09-23;14:49:24;0:01:56;rest;4.12;0.0;747
2025-09-23;14:49:28;0:02:00;rest;4.12;0.0;747
2025-09-23;14:49:32;0:02:04;rest;4.12;0.0;747
2025-09-23;14:49:36;0:02:08;rest;4.12;0.0;747
2025-09-23;14:49:40;0:02:12;rest;4.12;0.0;747
2025-09-23;14:49:44;0:02:16;rest;4.12;0.0;747
2025-09-23;14:49:48;0:02:20;rest;4.12;0.0;747
2025-09-23;14:49:52;0:02:24;rest;4.12;0.0;747
2025-09-23;14:49:56;0:02:28;rest;4.12;0.0;747
2025-09-23;14:50:00;0:02:32;rest;4.12;0.0;747
2025-09-23;14:50:04;0:02:36;rest;4.12;0.0;747
2025-09-23;14:50:08;0:02:40;rest;4.12;0.0;747
2025-09-23;14:50:12;0:02:44;rest;4.12;0.0;747
2025-09-23;14:50:16;0:02:48;rest;4.12;0.0;747
2025-09-23;14:50:20;0:02:52;rest;4.12;0.0;747
2025-09-23;14:50:24;0:02:56;rest;4.12;0.0;747
2025-09-23;14:50:28;0:03:00;rest;4.12;0.0;747
2025-09-23;14:50:32;0:03:04;rest;4.12;0.0;747
2025-09-23;14:50:36;0:03:08;rest;4.12;0.0;747
2025-09-23;14:50:40;0:03:12;rest;4.12;0.0;747
2025-09-23;14:50:44;0:03:16;rest;4.12;0.0;747
2025-09-23;14:50:48;0:03:20;rest;4.12;0.0;747
2025-09-23;14:50:52;0:03:24;rest;4.12;0.0;747
2025-09-23;14:50:56;0:03:28;rest;4.12;0.0;747
2025-09-23;14:51:00;0:03:32;rest;4.12;0.0;747
2025-09-23;14:51:04;0:03:36;rest;4.12;0.0;747
2025-09-23;14:51:08;0:03:40;rest;4.12;0.0;747
2025-09-23;14:51:12;0:03:44;rest;4.12;0.0;747
2025-09-23;14:51:16;0:03:48;rest;4.12;0.0;747
2025-09-23;14:51:20;0:03:52;rest;4.12;0.0;747
2025-09-23;14:51:24;0:03:56;rest;4.12;0.0;747
2025-09-23;14:51:28;0:04:00;rest;4.12;0.0;747
2025-09-23;14:51:32;0:04:04;rest;4.12;0.0;747
2025-09-23;14:51:36;0:04:08;rest;4.12;0.0;747
2025-09-23;14:51:40;0:04:12;rest;4.12;0.0;747
2025-09-23;14:51:44;0:04:16;rest;4.12;0.0;747
2025-09-23;14:51:48;0:04:20;rest;4.12;0.0;747
2025-09-23;14:51:52;0:04:24;rest;4.12;0.0;747
2025-09-23;14:51:56;0:04:28;rest;4.12;0.0;747
2025-09-23;14:52:00;0:04:32;rest;4.12;0.0;747
2025-09-23;14:52:04;0:04:36;rest;4.12;0.0;747
2025-09-23;14:52:08;0:04:40;rest;4.12;0.0;747
2025-09-23;14:52:12;0:04:44;rest;4.12;0.0;747
2025-09-23;14:52:16;0:04:48;rest;4.12;0.0;747
2025-09-23;14:52:20;0:04:52;rest;4.12;0.0;747
2025-09-23;14:52:24;0:04:56;rest;4.12;0.04;0
2025-09-23;14:52:28;0:05:00;discharging;3.456;0.37;0
2025-09-23;15:49:46;0:57:16;rest;3.924;0.0;480
2025-09-23;15:49:50;0:57:20;rest;3.922;0.0;480
2025-09-23;15:49:54;0:57:24;rest;3.927;0.0;480
2025-09-23;15:49:58;0:57:28;rest;3.927;0.0;480
2025-09-23;15:50:01;0:57:31;rest;3.927;0.0;480
2025-09-23;15:50:05;0:57:35;rest;3.927;0.0;480
2025-09-23;15:50:09;0:57:39;rest;3.927;0.0;480
2025-09-23;15:50:13;0:57:43;rest;3.927;0.0;480
2025-09-23;15:50:18;0:57:48;rest;3.927;0.0;480
2025-09-23;15:50:21;0:57:51;rest;3.927;0.0;480
2025-09-23;15:50:25;0:57:55;rest;3.927;0.0;480
2025-09-23;15:50:29;0:57:59;rest;3.927;0.0;480
2025-09-23;15:50:33;0:58:03;rest;3.927;0.0;480
2025-09-23;15:50:38;0:58:08;rest;3.927;0.0;480
2025-09-23;15:50:41;0:58:11;rest;3.927;0.0;480
2025-09-23;15:50:45;0:58:15;rest;3.927;0.0;480
2025-09-23;15:50:49;0:58:19;rest;3.935;0.0;480
2025-09-23;15:50:53;0:58:23;rest;3.927;0.0;480
2025-09-23;15:50:57;0:58:27;rest;3.927;0.0;480
2025-09-23;15:51:01;0:58:31;rest;3.927;0.0;480
2025-09-23;15:51:05;0:58:35;rest;3.927;0.0;480
2025-09-23;15:51:09;0:58:39;rest;3.933;0.0;480
2025-09-23;15:51:13;0:58:43;rest;3.934;0.0;480
2025-09-23;15:51:17;0:58:47;rest;3.927;0.0;480
2025-09-23;15:51:21;0:58:51;rest;3.927;0.0;480
2025-09-23;15:51:26;0:58:56;rest;3.927;0.0;480
2025-09-23;15:51:29;0:58:59;rest;3.927;0.0;480
2025-09-23;15:51:33;0:59:03;rest;3.927;0.0;480
2025-09-23;15:51:37;0:59:07;rest;3.931;0.0;480
2025-09-23;15:51:41;0:59:11;rest;3.927;0.0;480
2025-09-23;15:51:45;0:59:15;rest;3.927;0.0;480
2025-09-23;15:51:49;0:59:19;rest;3.929;0.0;480
2025-09-23;15:51:53;0:59:23;rest;3.929;0.0;480
2025-09-23;15:51:57;0:59:27;rest;3.928;0.0;480
2025-09-23;15:52:01;0:59:31;rest;3.929;0.0;480
2025-09-23;15:52:06;0:59:36;rest;3.93;0.0;480
2025-09-23;15:52:09;0:59:39;rest;3.929;0.0;480
2025-09-23;15:52:13;0:59:43;rest;3.929;0.0;480
2025-09-23;15:52:18;0:59:48;rest;3.93;0.0;480
2025-09-23;15:52:22;0:59:52;rest;3.931;0.0;480
2025-09-23;15:52:25;0:59:55;rest;3.932;0.0;480
2025-09-23;15:52:29;0:59:59;rest;3.932;0.0;480
2025-09-23;15:52:33;1:00:03;rest;3.931;0.0;480
2025-09-23;15:52:37;1:00:07;rest;3.931;0.0;480
2025-09-23;15:52:41;1:00:11;rest;3.932;0.0;480
2025-09-23;15:52:46;1:00:16;rest;3.935;0.0;480
2025-09-23;15:52:49;1:00:19;rest;3.929;0.0;480
2025-09-23;15:52:53;1:00:23;rest;3.932;0.0;480
2025-09-23;15:52:57;1:00:27;rest;3.931;0.0;480
2025-09-23;15:53:01;1:00:31;rest;3.932;0.0;480
2025-09-23;15:53:05;1:00:35;rest;3.935;0.0;480
2025-09-23;15:53:09;1:00:39;rest;3.934;0.0;480
2025-09-23;15:53:13;1:00:43;rest;3.934;0.0;480
2025-09-23;15:53:17;1:00:47;rest;3.931;0.0;480
2025-09-23;15:53:22;1:00:52;rest;3.932;0.0;480
2025-09-23;15:53:26;1:00:56;rest;3.935;0.0;480
2025-09-23;15:53:29;1:00:59;rest;3.933;0.0;480
2025-09-23;15:53:33;1:01:03;rest;3.933;0.0;480
2025-09-23;15:53:37;1:01:07;rest;3.934;0.0;480
2025-09-23;15:53:41;1:01:11;rest;3.932;0.0;480
2025-09-23;15:53:45;1:01:15;rest;3.934;0.0;480
2025-09-23;15:53:49;1:01:19;rest;3.934;0.0;480
2025-09-23;15:53:53;1:01:23;rest;3.935;0.0;480
2025-09-23;15:53:57;1:01:27;rest;3.934;0.0;480
2025-09-23;15:54:01;1:01:31;rest;3.935;0.0;480
2025-09-23;15:54:05;1:01:35;rest;3.935;0.0;480
2025-09-23;15:54:09;1:01:39;rest;3.935;0.0;480
2025-09-23;15:54:13;1:01:43;rest;3.934;0.0;480
2025-09-23;15:54:17;1:01:47;rest;3.935;0.0;480
2025-09-23;15:54:21;1:01:51;rest;3.935;0.0;480
2025-09-23;15:54:25;1:01:55;rest;3.935;0.0;480
2025-09-23;15:54:29;1:01:59;rest;3.934;0.0;480
2025-09-23;15:54:33;1:02:03;rest;3.934;0.0;480
2025-09-23;15:54:37;1:02:07;rest;3.934;0.0;480
2025-09-23;15:54:44;1:02:14;charging;4.135;0.04;0
2025-09-23;15:54:46;1:02:16;charging;4.197;0.06;0